Folder: icys_2024_tutorials/tutorial_3_wulff_shapes/data

Note: README.md
Repository for the track "Guiding synthesis by materials modeling" as Skoltech's Worhshop: "IX International School-Conference of Young Scientists â€œSynthesis of Electrode Materials".

Lectures can be found at [Storion](https://storion.ru/courses/crash-2) web page.

File: xrd_vo2.csv
Dataset 0,
X,Y
20.0793,2.27875
20.3804,2.91211
20.6274,4.32498
20.8204,4.61729
21.0521,4.51986
21.1679,3.78906
21.3377,3.83778
21.5153,4.27626
21.6079,3.78906
21.7314,3.74034
21.8781,3.78906
21.9707,3.30186
22.1097,3.10699
22.2024,3.44802
22.295,3.44802
22.3876,2.86339
22.4494,2.27875
22.5961,2.66851
22.7582,3.05827
22.8972,3.05827
23.0516,3.44802
23.206,3.3993
23.3449,3.25315
23.4933,3.15841
23.6327,3.53058
23.7721,3.25991
23.933,3.02308
24.126,3.36141
24.2653,3.42908
24.4155,3.22608
24.5656,3.15841
24.6674,3.53058
24.7586,2.82008
24.8873,1.60209
25.0534,0.181102
25.2089,0.756264
25.284,2.14342
25.3161,3.80124
25.4019,5.35756
25.5306,4.7824
25.6217,3.29374
25.8415,1.97425
25.9863,1.56826
26.1954,0.350267
26.4259,-0.05573
26.6404,0.654765
26.7637,3.05691
26.9192,4.95157
27.0639,4.4779
27.1229,2.48175
27.2194,0.417933
27.3909,0.350267
27.466,2.54942
27.5411,5.05306
27.5839,8.09804
27.6107,11.4813
27.6107,15.5075
27.6322,20.6163
27.6804,24.9807
27.7019,30.5294
27.7448,36.3825
27.7341,42.4048
27.7555,48.7654
27.7769,54.4494
28.0075,52.69
28.045,46.2618
28.0611,40.6793
28.1361,35.6382
28.1361,30.9692
28.163,26.7062
28.1683,22.6124
28.1844,18.248
28.2219,13.0038
28.2916,7.04922
28.4578,3.15841
28.8706,0.993095
29.2566,2.71858
29.6963,0.925429
30.1359,1.26376
30.5273,1.56826
30.8757,0.485599
31.1492,1.09459
31.7335,0.688598
32.0927,0.790097
32.5377,0.350267
32.988,0.113435
33.165,0.147268
33.5081,1.83892
33.744,0.891596
34.1193,0.756264
34.457,0.316434
34.768,0.0119361
35.1004,0.214935
35.5293,-0.0895631
36.0279,0.147268
36.3603,0.620932
36.6658,3.39524
36.7516,7.38755
36.8106,10.94
36.8374,15.2707
36.8642,17.9773
36.9125,21.8681
36.9339,25.3529
37.0465,28.4994
37.202,25.7251
37.2449,21.5636
37.2717,17.3006
37.3146,13.6805
37.336,9.11303
37.3521,5.3914
37.4325,3.05691
37.7434,0.3841
38.1134,0.0796023
38.4887,0.113435
38.8907,0.214935
39.2071,0.3841
39.5287,0.959262
39.829,3.15841
39.9791,1.19609
40.2203,-0.05573
40.5581,0.350267
40.7618,0.248768
41.0138,0.181102
41.3087,0.722431
41.5767,1.63592
41.818,2.98925
41.9198,5.49289
41.9949,7.86121
42.0271,10.6017
42.1182,12.7332
42.2469,12.2933
42.3487,12.4963
42.4184,10.0604
42.456,7.42138
42.5525,4.81623
42.6168,2.14342
42.8634,0.451766
43.1422,0.316434
43.4531,0.417933
43.7212,0.214935
44.0161,1.12843
44.1984,0.620932
44.4021,0.0796023
44.6165,0.722431
44.7774,1.29759
44.9704,0.82393
45.2063,0.82393
45.3778,0.417933
45.5387,0.654765
45.7263,0.214935
45.9676,0.417933
46.2356,0.350267
46.4286,-0.123396
46.686,0.214935
46.8361,0.181102
47.1095,0.485599
47.34,-0.05573
47.5545,0.654765
47.6349,0.316434
47.8333,0.147268
48.0155,0.147268
48.1871,0.248768
48.3479,1.02693
48.4444,1.16226
48.5892,1.29759
48.7232,0.82393
48.9001,0.214935
49.12,0.0796023
49.3022,0.417933
49.4363,0.688598
49.5971,0.756264
49.8437,0.316434
49.9724,0.0119361
50.1547,0.147268
50.3155,0.0119361
50.5621,0.451766
50.798,0.316434
50.9857,0.0457692
51.2752,0.0457692
51.5164,0.147268
51.7738,0.181102
52.0096,0.0457692
52.2563,0.0119361
52.4064,0.0796023
52.5994,1.02693
52.8085,2.51558
53.0283,2.17725
53.2052,1.33143
53.3339,0.3841
53.5751,-0.0895631
53.7949,0.519432
53.9879,0.282601
54.197,0.451766
54.315,0.282601
54.4436,1.39909
54.4651,1.63592
54.8189,1.70359
54.9261,3.39524
55.0066,5.86506
55.0173,6.54172
55.1138,11.0415
55.1728,13.8497
55.2585,17.1315
55.3068,20.3118
55.414,21.2253
55.5749,21.3268
55.6714,20.0411
55.7357,16.8946
55.7893,13.6805
55.8644,10.2295
55.9073,6.47405
56.0627,3.02308
56.3147,0.722431
56.6042,0.519432
56.7972,2.14342
57.0867,1.80509
57.2744,3.09075
57.4781,4.81623
57.6872,5.86506
57.8427,3.73357
58.0035,1.39909
58.234,-0.0218969
58.5771,0.3841
58.9363,0.248768
59.2366,0.3841
59.4885,0.113435
59.7941,0.451766
59.8531,0.519432